File: xrd.csv
twotheta,intensity
5.0001,5622
5.06149,5608
5.12288,5631
5.18428,5594
5.24567,5456
5.30706,5410
5.36845,5305
5.42984,5267
5.49123,5294
5.55263,5348
5.61402,5263
5.67541,5196
5.7368,5215
5.79819,5194
5.85958,5150
5.92098,4995
5.98237,5090
6.04376,5081
6.10515,5119
6.16654,4995
6.22793,5033
6.28933,4962
6.35072,5050
6.41211,4947
6.4735,4944
6.53489,5071
6.59628,4947
6.65768,4959
6.71907,4962
6.78046,4709
6.84185,4945
6.90324,5065
6.96463,4884
7.02603,5048
7.08742,4935
7.14881,4775
7.2102,5064
7.27159,5013
7.33298,4994
7.39438,5018
7.45577,5042
7.51716,5027
7.57855,4932
7.63994,4901
7.70133,4862
7.76273,4924
7.82412,4954
7.88551,4870
7.9469,5042
8.00829,4959
8.06968,4940
8.13108,5145
8.19247,5003
8.25386,5071
8.31525,5106
8.37664,5095
8.43803,5021
8.49943,5061
8.56082,5050
8.62221,4994
8.6836,5218
8.74499,5162
8.80638,5034
8.86778,5125
8.92917,5076
8.99056,5211
9.05195,5039
9.11334,5165
9.17473,5012
9.23613,5166
9.29752,5099
9.35891,5117
9.4203,5175
9.48169,5214
9.54308,5099
9.60448,5232
9.66587,5206
9.72726,5251
9.78865,5113
9.85004,5228
9.91143,5214
9.97283,5121
10.0342,5250
10.0956,5214
10.157,5216
10.2184,5080
10.2798,5212
10.3412,5318
10.4026,5150
10.464,5132
10.5254,5412
10.5867,5331
10.6481,5300
10.7095,5199
10.7709,5423
10.8323,5236
10.8937,5372
10.9551,5313
11.0165,5404
11.0779,5377
11.1393,5376
11.2007,5437
11.2621,5387
11.3234,5418
11.3848,5345
11.4462,5502
11.5076,5470
11.569,5469
11.6304,5555
11.6918,5434
11.7532,5555
11.8146,5488
11.876,5421
11.9374,5524
11.9988,5582
12.0601,5548
12.1215,5518
12.1829,5497
12.2443,5563
12.3057,5509
12.3671,5518
12.4285,5394
12.4899,5561
12.5513,5493
12.6127,5543
12.6741,5625
12.7355,5387
12.7968,5511
12.8582,5484
12.9196,5415
12.981,5411
13.0424,5490
13.1038,5333
13.1652,5463
13.2266,5239
13.288,5211
13.3494,5336
13.4108,5205
13.4722,5323
13.5335,5179
13.5949,5184
13.6563,5255
13.7177,5198
13.7791,5082
13.8405,5116
13.9019,5068
13.9633,4990
14.0247,5086
14.0861,4893
14.1475,5024
14.2089,4897
14.2702,4909
14.3316,4862
14.393,4831
14.4544,4777
14.5158,4873
14.5772,4706
14.6386,4846
14.7,4696
14.7614,4701
14.8228,4786
14.8842,4718
14.9456,4625
15.0069,4684
15.0683,4511
15.1297,4489
15.1911,4633
15.2525,4580
15.3139,4562
15.3753,4487
15.4367,4398
15.4981,4408
15.5595,4551
15.6209,4446
15.6823,4359
15.7436,4399
15.805,4358
15.8664,4378
15.9278,4356
15.9892,4473
16.0506,4292
16.112,4307
16.1734,4339
16.2348,4456
16.2962,4376
16.3576,4347
16.419,4169
16.4803,4467
16.5417,4314
16.6031,4301
16.6645,4347
16.7259,4242
16.7873,4358
16.8487,4383
16.9101,4138
16.9715,4232
17.0329,4308
17.0943,4349
17.1557,4107
17.217,4141
17.2784,4150
17.3398,4092
17.4012,4172
17.4626,4196
17.524,4093
17.5854,4143
17.6468,4171
17.7082,4136
17.7696,4116
17.831,4191
17.8924,4119
17.9537,4202
18.0151,4301
18.0765,4201
18.1379,4155
18.1993,4235
18.2607,4094
18.3221,4136
18.3835,4192
18.4449,4134
18.5063,4200
18.5677,4101
18.6291,4128
18.6904,4123
18.7518,3983
18.8132,4106
18.8746,4161
18.936,4114
18.9974,4158
19.0588,4272
19.1202,4048
19.1816,4021
19.243,4193
19.3044,4153
19.3658,4063
19.4271,4120
19.4885,4011
19.5499,4159
19.6113,4199
19.6727,4000
19.7341,4181
19.7955,4135
19.8569,4165
19.9183,4113
19.9797,4074
20.0411,4218
20.1025,4092
20.1638,4159
20.2252,4148
20.2866,4085
20.348,4192
20.4094,4133
20.4708,4161
20.5322,4114
20.5936,4071
20.655,4171
20.7164,4174
20.7778,4162
20.8392,4153
20.9005,4198
20.9619,4218
21.0233,4030
21.0847,4138
21.1461,4216
21.2075,4231
21.2689,4154
21.3303,4149
21.3917,4148
21.4531,4090
21.5145,4025
21.5759,4082
21.6372,4282
21.6986,4166
21.76,4252
21.8214,4357
21.8828,4111
21.9442,4289
22.0056,4138
22.067,4184
22.1284,4085
22.1898,4216
22.2512,4187
22.3126,4275
22.3739,4188
22.4353,4171
22.4967,4254
22.5581,4169
22.6195,4199
22.6809,4221
22.7423,4247
22.8037,4152
22.8651,4230
22.9265,4194
22.9879,4256
23.0493,4214
23.1106,4265
23.172,4125
23.2334,4184
23.2948,4269
23.3562,4174
23.4176,4091
23.479,4295
23.5404,4070
23.6018,4300
23.6632,4274
23.7246,4320
23.786,4263
23.8473,4157
23.9087,4193
23.9701,4256
24.0315,4261
24.0929,4307
24.1543,4140
24.2157,4225
24.2771,4275
24.3385,4283
24.3999,4199
24.4613,4321
24.5227,4230
24.584,4331
24.6454,4210
24.7068,4299
24.7682,4258
24.8296,4212
24.891,4282
24.9524,4344
25.0138,4348
25.0752,4292
25.1366,4275
25.198,4334
25.2594,4290
25.3207,4420
25.3821,4410
25.4435,4310
25.5049,4354
25.5663,4447
25.6277,4363
25.6891,4319
25.7505,4257
25.8119,4459
25.8733,4323
25.9347,4224
25.9961,4181
26.0574,4181
26.1188,4226
26.1802,4347
26.2416,4488
26.303,4304
26.3644,4247
26.4258,4301
26.4872,4190
26.5486,4368
26.61,4336
26.6714,4140
26.7328,4243
26.7941,4416
26.8555,4257
26.9169,4285
26.9783,4362
27.0397,4313
27.1011,4360
27.1625,4241
27.2239,4315
27.2853,4179
27.3467,4224
27.4081,4249
27.4695,4172
27.5308,4158
27.5922,4173
27.6536,4236
27.715,4202
27.7764,4217
27.8378,4211
27.8992,4148
27.9606,4181
28.022,4151
28.0834,4216
28.1448,4203
28.2062,4174
28.2675,4124
28.3289,4219
28.3903,4393
28.4517,4174
28.5131,4230
28.5745,4111
28.6359,4058
28.6973,4294
28.7587,4250
28.8201,4159
28.8815,4133
28.9429,4155
29.0042,4182
29.0656,4252
29.127,4109
29.1884,4137
29.2498,4121
29.3112,4147
29.3726,4248
29.434,4104
29.4954,4224
29.5568,4237
29.6182,4201
29.6796,4141
29.7409,4207
29.8023,4193
29.8637,4209
29.9251,4230
29.9865,4077
30.0479,4087
30.1093,4198
30.1707,4231
30.2321,4158
30.2935,4164
30.3549,4287
30.4163,4217
30.4776,4288
30.539,4138
30.6004,4233
30.6618,4276
30.7232,4211
30.7846,4185
30.846,4227
30.9074,4149
30.9688,4114
31.0302,4321
31.0916,4182
31.153,4267
31.2143,4091
31.2757,4256
31.3371,4196
31.3985,4225
31.4599,4161
31.5213,4200
31.5827,4272
31.6441,4161
31.7055,4203
31.7669,4036
31.8283,4287
31.8897,4190
31.951,4053
32.0124,4252
32.0738,4123
32.1352,4155
32.1966,4234
32.258,4175
32.3194,4286
32.3808,4222
32.4422,4117
32.5036,4250
32.565,4161
32.6264,4213
32.6877,4308
32.7491,4238
32.8105,4297
32.8719,4265
32.9333,4100
32.9947,4255
33.0561,4172
33.1175,4167
33.1789,4147
33.2403,4134
33.3017,4171
33.3631,4224
33.4244,4221
33.4858,4247
33.5472,4245
33.6086,4220
33.67,4196
33.7314,4244
33.7928,4164
33.8542,4162
33.9156,4309
33.977,4204
34.0384,4323
34.0998,4282
34.1611,4136
34.2225,4302
34.2839,4269
34.3453,4344
34.4067,4263
34.4681,4272
34.5295,4290
34.5909,4357
34.6523,4326
34.7137,4297
34.7751,4263
34.8365,4400
34.8978,4222
34.9592,4416
35.0206,4297
35.082,4346
35.1434,4379
35.2048,4440
35.2662,4390
35.3276,4475
35.389,4534
35.4504,4343
35.5118,4537
35.5732,4570
35.6345,4554
35.6959,4537
35.7573,4572
35.8187,4558
35.8801,4559
35.9415,4545
36.0029,4502
36.0643,4453
36.1257,4495
36.1871,4412
36.2485,4580
36.3099,4571
36.3712,4527
36.4326,4403
36.494,4443
36.5554,4482
36.6168,4457
36.6782,4430
36.7396,4500
36.801,4566
36.8624,4390
36.9238,4507
36.9852,4539
37.0466,4635
37.1079,4449
37.1693,4522
37.2307,4468
37.2921,4504
37.3535,4351
37.4149,4411
37.4763,4440
37.5377,4587
37.5991,4297
37.6605,4252
37.7219,4220
37.7833,4263
37.8446,4264
37.906,4208
37.9674,4399
38.0288,4236
38.0902,4230
38.1516,4246
38.213,4069
38.2744,4150
38.3358,4143
38.3972,4136
38.4586,4142
38.52,4191
38.5813,4195
38.6427,4182
38.7041,4008
38.7655,3941
38.8269,4145
38.8883,3952
38.9497,3966
39.0111,4074
39.0725,4090
39.1339,4006
39.1953,3951
39.2567,4058
39.318,4065
39.3794,4124
39.4408,4022
39.5022,4060
39.5636,4000
39.625,4101
39.6864,4015
39.7478,3944
39.8092,4136
39.8706,4153
39.932,3977
39.9934,4009
40.0547,4010
40.1161,3888
40.1775,4007
40.2389,4051
40.3003,4209
40.3617,3960
40.4231,3993
40.4845,4127
40.5459,4106
40.6073,4104
40.6687,4034
40.7301,4104
40.7914,4143
40.8528,4032
40.9142,4102
40.9756,3962
41.037,3999
41.0984,4091
41.1598,4027
41.2212,4061
41.2826,4150
41.344,4199
41.4054,4048
41.4668,4060
41.5281,3990
41.5895,4097
41.6509,4089
41.7123,4077
41.7737,4153
41.8351,4088
41.8965,4130
41.9579,4056
42.0193,4064
42.0807,4079
42.1421,4050
42.2035,3983
42.2648,4142
42.3262,4034
42.3876,4001
42.449,4174
42.5104,4196
42.5718,4216
42.6332,4250
42.6946,4164
42.756,4227
42.8174,4247
42.8788,4378
42.9402,4467
43.0015,4413
43.0629,4321
43.1243,4363
43.1857,4446
43.2471,4269
43.3085,4246
43.3699,4459
43.4313,4197
43.4927,4391
43.5541,4343
43.6155,4388
43.6769,4391
43.7382,4325
43.7996,4231
43.861,4338
43.9224,4401
43.9838,4275
44.0452,4280
44.1066,4180
44.168,4033
44.2294,4153
44.2908,3979
44.3522,4105
44.4136,4237
44.4749,4225
44.5363,4119
44.5977,4093
44.6591,4155
44.7205,4096
44.7819,4017
44.8433,4111
44.9047,4077
44.9661,4071
45.0275,4012
45.0889,4060
45.1503,4095
45.2116,3933
45.273,3965
45.3344,3979
45.3958,4122
45.4572,3976
45.5186,4064
45.58,4063
45.6414,3954
45.7028,4027
45.7642,3970
45.8256,3934
45.887,3970
45.9484,4038
46.0097,3913
46.0711,3948
46.1325,4052
46.1939,3938
46.2553,3918
46.3167,4016
46.3781,3892
46.4395,3948
46.5009,3911
46.5623,3949
46.6237,3956
46.6851,3906
46.7464,4031
46.8078,3885
46.8692,3845
46.9306,3837
46.992,3922
47.0534,3850
47.1148,3949
47.1762,3881
47.2376,3980
47.299,3908
47.3604,3866
47.4218,3889
47.4831,3910
47.5445,3766
47.6059,3900
47.6673,3810
47.7287,3798
47.7901,3934
47.8515,3845
47.9129,3928
47.9743,3954
48.0357,3810
48.0971,3827
48.1585,3768
48.2198,3846
48.2812,3764
48.3426,3866
48.404,3817
48.4654,3889
48.5268,3810
48.5882,3870
48.6496,3770
48.711,3776
48.7724,3831
48.8338,3807
48.8952,3884
48.9565,3815
49.0179,3838
49.0793,3744
49.1407,3743
49.2021,3808
49.2635,3847
49.3249,3836
49.3863,3833
49.4477,3708
49.5091,3720
49.5705,3857
49.6319,3750
49.6932,3907
49.7546,3825
49.816,3747
49.8774,3818
49.9388,3723
50.0002,3814
50.0616,3815
50.123,3775
50.1844,3817
50.2458,3905
50.3072,3940
50.3686,3756
50.4299,3777
50.4913,3850
50.5527,3913
50.6141,3791
50.6755,3775
50.7369,3875
50.7983,3865
50.8597,3830
50.9211,3801
50.9825,3828
51.0439,3926
51.1053,3902
51.1666,3904
51.228,3875
51.2894,3892
51.3508,3925
51.4122,3781
51.4736,3887
51.535,3965
51.5964,3889
51.6578,3881
51.7192,3811
51.7806,3985
51.842,3836
51.9033,3836
51.9647,3831
52.0261,3862
52.0875,3885
52.1489,3748
52.2103,3814
52.2717,3929
52.3331,3926
52.3945,3918
52.4559,3951
52.5173,3869
52.5787,3908
52.64,3904
52.7014,3959
52.7628,3830
52.8242,3970
52.8856,3814
52.947,3904
53.0084,3830
53.0698,4017
53.1312,3892
53.1926,3927
53.254,3923
53.3154,3958
53.3767,3851
53.4381,3802
53.4995,3823
53.5609,3887
53.6223,3894
53.6837,3971
53.7451,3875
53.8065,3844
53.8679,3756
53.9293,3893
53.9907,3886
54.0521,3808
54.1134,3756
54.1748,3752
54.2362,3817
54.2976,3792
54.359,3685
54.4204,3821
54.4818,3857
54.5432,3713
54.6046,3693
54.666,3726
54.7274,3722
54.7888,3789
54.8501,3675
54.9115,3784
54.9729,3796
55.0343,3794
55.0957,3779
55.1571,3788
55.2185,3782
55.2799,3649
55.3413,3784
55.4027,3760
55.4641,3719
55.5255,3740
55.5868,3719
55.6482,3708
55.7096,3644
55.771,3670
55.8324,3630
55.8938,3687
55.9552,3604
56.0166,3577
56.078,3676
56.1394,3652
56.2008,3630
56.2622,3649
56.3235,3663
56.3849,3689
56.4463,3603
56.5077,3722
56.5691,3688
56.6305,3656
56.6919,3641
56.7533,3672
56.8147,3667
56.8761,3748
56.9375,3564
56.9989,3689
57.0602,3608
57.1216,3569
57.183,3631
57.2444,3715
57.3058,3701
57.3672,3654
57.4286,3737
57.49,3611
57.5514,3553
57.6128,3716
57.6742,3650
57.7356,3559
57.7969,3654
57.8583,3772
57.9197,3679
57.9811,3707
58.0425,3743
58.1039,3717
58.1653,3653
58.2267,3725
58.2881,3595
58.3495,3713
58.4109,3637
58.4723,3676
58.5336,3814
58.595,3650
58.6564,3680
58.7178,3664
58.7792,3544
58.8406,3681
58.902,3698
58.9634,3662
59.0248,3642
59.0862,3630
59.1476,3716
59.209,3603
59.2703,3671
59.3317,3640
59.3931,3721
59.4545,3695
59.5159,3736
59.5773,3704
59.6387,3581
59.7001,3665
59.7615,3643
59.8229,3604
59.8843,3597
59.9457,3683
60.007,3673
60.0684,3665
60.1298,3706
60.1912,3675
60.2526,3703
60.314,3654
60.3754,3742
60.4368,3760
60.4982,3676
60.5596,3707
60.621,3780
60.6824,3623
60.7437,3786
60.8051,3761
60.8665,3703
60.9279,3792
60.9893,3741
61.0507,3749
61.1121,3828
61.1735,3646
61.2349,3779
61.2963,3671
61.3577,3700
61.4191,3691
61.4804,3768
61.5418,3611
61.6032,3776
61.6646,3759
61.726,3730
61.7874,3854
61.8488,3726
61.9102,3849
61.9716,3813
62.033,3816
62.0944,3832
62.1558,3848
62.2171,3801
62.2785,3783
62.3399,3830
62.4013,3823
62.4627,3881
62.5241,3922
62.5855,4013
62.6469,3797
62.7083,3846
62.7697,3858
62.8311,3884
62.8925,4022
62.9538,4007
63.0152,3971
63.0766,3961
63.138,3898
63.1994,3965
63.2608,3892
63.3222,3946
63.3836,3929
63.445,3974
63.5064,3856
63.5678,4013
63.6292,3935
63.6905,3974
63.7519,3944
63.8133,3819
63.8747,3871
63.9361,4008
63.9975,3713
64.0589,3863
64.1203,3759
64.1817,3830
64.2431,3755
64.3045,3763
64.3659,3699
64.4272,3780
64.4886,3827
64.55,3782
64.6114,3712
64.6728,3714
64.7342,3718
64.7956,3767
64.857,3617
64.9184,3767
64.9798,3682
65.0412,3687
65.1026,3790
65.1639,3815
65.2253,3732
65.2867,3783
65.3481,3714
65.4095,3856
65.4709,3620
65.5323,3549
65.5937,3831
65.6551,3747
65.7165,3673
65.7779,3759
65.8393,3637
65.9006,3726
65.962,3729
66.0234,3691
66.0848,3676
66.1462,3704
66.2076,3758
66.269,3654
66.3304,3638
66.3918,3589
66.4532,3657
66.5146,3780
66.576,3655
66.6373,3732
66.6987,3600
66.7601,3705
66.8215,3566
66.8829,3647
66.9443,3661
67.0057,3642
67.0671,3619
67.1285,3687
67.1899,3604
67.2513,3620
67.3127,3575
67.374,3448
67.4354,3540
67.4968,3550
67.5582,3581
67.6196,3546
67.681,3519
67.7424,3586
67.8038,3583
67.8652,3510
67.9266,3536
67.988,3494
68.0494,3593
68.1107,3532
68.1721,3595
68.2335,3544
68.2949,3656
68.3563,3557
68.4177,3563
68.4791,3597
68.5405,3511
68.6019,3462
68.6633,3516
68.7247,3517
68.7861,3601
68.8474,3431
68.9088,3423
68.9702,3522
69.0316,3520
69.093,3464
69.1544,3430
69.2158,3452
69.2772,3496
69.3386,3497
69.4,3486
69.4614,3437
69.5228,3582
69.5841,3458
69.6455,3458
69.7069,3391
69.7683,3380
69.8297,3550
69.8911,3519
69.9525,3455
70.0139,3548
70.0753,3446
70.1367,3423
70.1981,3465
70.2595,3520
70.3208,3481
70.3822,3466
70.4436,3426
70.505,3480
70.5664,3378
70.6278,3447
70.6892,3450
70.7506,3395
70.812,3401
70.8734,3407
70.9348,3430
70.9962,3456
71.0575,3478
71.1189,3456
71.1803,3288
71.2417,3380
71.3031,3329
71.3645,3435
71.4259,3444
71.4873,3422
71.5487,3390
71.6101,3430
71.6715,3319
71.7329,3407
71.7942,3401
71.8556,3398
71.917,3339
71.9784,3441
72.0398,3346
72.1012,3368
72.1626,3359
72.224,3428
72.2854,3380
72.3468,3458
72.4082,3419
72.4696,3329
72.5309,3368
72.5923,3457
72.6537,3372
72.7151,3372
72.7765,3268
72.8379,3299
72.8993,3463
72.9607,3471
73.0221,3392
73.0835,3422
73.1449,3462
73.2063,3407
73.2676,3305
73.329,3258
73.3904,3361
73.4518,3442
73.5132,3378
73.5746,3334
73.636,3419
73.6974,3247
73.7588,3341
73.8202,3355
73.8816,3435
73.943,3457
74.0043,3311
74.0657,3318
74.1271,3378
74.1885,3383
74.2499,3414
74.3113,3393
74.3727,3327
74.4341,3369
74.4955,3380
74.5569,3398
74.6183,3343
74.6797,3464
74.741,3376
74.8024,3385
74.8638,3433
74.9252,3465
74.9866,3448
75.048,3377
75.1094,3284
75.1708,3364
75.2322,3405
75.2936,3363
75.355,3495
75.4164,3269
75.4777,3401
75.5391,3396
75.6005,3333
75.6619,3335
75.7233,3363
75.7847,3450
75.8461,3466
75.9075,3417
75.9689,3469
76.0303,3338
76.0917,3376
76.1531,3381
76.2144,3204
76.2758,3392
76.3372,3365
76.3986,3362
76.46,3351
76.5214,3273
76.5828,3338
76.6442,3386
76.7056,3375
76.767,3313
76.8284,3228
76.8898,3359
76.9511,3286
77.0125,3271
77.0739,3366
77.1353,3322
77.1967,3189
77.2581,3343
77.3195,3292
77.3809,3352
77.4423,3334
77.5037,3214
77.5651,3315
77.6265,3256
77.6878,3260
77.7492,3247
77.8106,3317
77.872,3323
77.9334,3287
77.9948,3178
78.0562,3318
78.1176,3176
78.179,3200
78.2404,3227
78.3018,3299
78.3632,3227
78.4245,3221
78.4859,3326
78.5473,3277
78.6087,3230
78.6701,3364
78.7315,3260
78.7929,3279
78.8543,3181
78.9157,3144
78.9771,3263
79.0385,3275
79.0999,3323
79.1612,3166
79.2226,3329
79.284,3289
79.3454,3256
79.4068,3262
79.4682,3214
79.5296,3334
79.591,3287
79.6524,3223
79.7138,3295
79.7752,3257
79.8366,3247
79.8979,3219
79.9593,3382
80.0003,3148